order,heading,roll,pitch,ax,ay,az
0,0.0,0.0,0.0,0.0,0.0,0.0
1,0.0,0.0,0.0,0.0,0.0,0.0
2,0.0,0.0,0.0,0.0,0.0,0.0
3,0.0,0.0,0.0,0.0,0.0,0.0
4,0.0,0.0,0.0,0.0,0.0,0.0
5,0.0,0.0,0.0,0.0,0.0,0.0
6,359.75,1.1875,25.5,0.01,-0.02,-0.06
7,359.75,1.1875,25.5,0.01,-0.02,-0.06
8,359.75,1.1875,25.5,0.01,0.0,-0.06
9,359.75,1.1875,25.5,0.01,0.0,-0.04
10,359.75,1.1875,25.5,0.01,0.01,-0.03
11,359.75,1.1875,25.5,0.0,0.0,-0.06
12,359.75,1.1875,25.5,0.0,0.0,-0.06
13,359.75,1.1875,25.5,0.01,-0.02,-0.04
14,359.75,1.1875,25.5,0.01,0.0,-0.03
15,359.75,1.1875,25.5,0.01,0.0,-0.03
16,359.75,1.1875,25.5,0.01,0.0,-0.02
17,359.75,1.1875,25.5,0.01,-0.01,-0.05
18,359.75,1.1875,25.5,0.01,0.0,-0.03
19,359.75,1.1875,25.5,0.01,0.0,-0.03
20,359.75,1.1875,25.5,0.01,0.0,-0.04
21,359.75,1.1875,25.5,0.0,0.0,-0.06
22,359.75,1.1875,25.5,0.0,0.0,-0.06
23,359.75,1.1875,25.5,0.01,0.0,-0.03
24,359.75,1.1875,25.5,0.0,0.0,-0.03
25,359.75,1.1875,25.5,0.02,-0.02,-0.02
26,359.75,1.1875,25.5,0.02,-0.02,-0.02
27,359.75,1.1875,25.5,0.0,-0.01,-0.03
28,359.75,1.1875,25.5,0.0,0.0,-0.05
29,359.75,1.1875,25.5,0.0,0.0,-0.05
30,359.75,1.1875,25.5,0.0,0.0,-0.04
31,359.75,1.1875,25.5,0.01,-0.01,-0.02
32,359.75,1.1875,25.5,0.01,-0.01,-0.04
33,359.75,1.1875,25.5,0.01,-0.01,-0.04
34,359.75,1.1875,25.5,0.0,0.0,-0.03
35,359.75,1.1875,25.5,0.0,0.0,-0.03
36,359.75,1.1875,25.5,0.01,0.0,-0.02
37,359.75,1.1875,25.5,0.0,0.0,-0.02
38,359.75,1.1875,25.5,0.01,0.0,-0.05
39,359.75,1.1875,25.5,0.01,0.0,-0.05
40,359.75,1.1875,25.5,0.0,0.0,-0.03
41,359.75,1.1875,25.5,0.01,0.0,-0.02
42,359.75,1.1875,25.5,0.01,0.0,-0.02
43,359.75,1.1875,25.5,0.01,0.0,-0.03
44,359.75,1.1875,25.5,0.01,0.0,-0.03
45,359.75,1.1875,25.5,0.0,0.0,-0.01
46,359.75,1.1875,25.5,0.0,0.0,-0.01
47,359.75,1.1875,25.5,0.0,0.0,-0.02
48,359.75,1.1875,25.5,0.0,0.0,-0.02
49,359.75,1.1875,25.5,0.01,-0.02,-0.05
50,359.75,1.1875,25.5,0.0,-0.02,-0.05
51,359.75,1.1875,25.5,0.0,-0.02,-0.05
52,359.75,1.1875,25.5,0.0,-0.01,-0.02
53,359.75,1.1875,25.5,0.0,-0.02,-0.02
54,359.75,1.1875,25.5,0.0,-0.02,-0.02
55,359.75,1.1875,25.5,0.0,-0.01,-0.04
56,359.75,1.1875,25.5,0.01,0.0,-0.05
57,359.75,1.1875,25.5,0.01,0.0,-0.05
58,359.75,1.1875,25.5,0.01,0.0,-0.05
59,359.75,1.1875,25.5,0.01,0.0,-0.05
60,359.75,1.1875,25.5,0.02,-0.01,-0.02
61,359.75,1.1875,25.5,0.01,-0.02,-0.01
62,359.75,1.1875,25.5,0.0,-0.01,-0.02
63,359.75,1.1875,25.5,0.0,-0.01,-0.02
64,359.75,1.1875,25.5,0.0,-0.01,-0.03
65,359.75,1.1875,25.5,0.01,-0.01,-0.02
66,359.75,1.1875,25.5,0.01,-0.01,-0.02
67,359.75,1.1875,25.5,0.0,0.0,-0.03
68,359.75,1.1875,25.5,0.02,-0.01,0.0
69,359.75,1.1875,25.5,0.02,-0.01,-0.03
70,359.75,1.1875,25.5,0.02,-0.01,-0.03
71,359.75,1.1875,25.5,0.01,0.0,-0.02
72,359.75,1.1875,25.5,0.01,-0.01,-0.03
73,359.75,1.1875,25.5,0.01,-0.01,-0.04
74,359.75,1.1875,25.5,0.01,0.0,-0.02
75,359.75,1.1875,25.5,0.01,0.0,-0.02
76,359.75,1.1875,25.5,0.01,-0.01,-0.05
77,359.75,1.1875,25.5,0.01,-0.01,-0.05
78,359.75,1.1875,25.5,0.0,-0.01,-0.03
79,359.75,1.1875,25.5,0.02,0.0,-0.03
80,359.75,1.1875,25.5,0.02,0.0,-0.03
81,359.75,1.1875,25.5,0.01,0.0,-0.04
82,359.75,1.1875,25.5,0.0,-0.02,-0.02
83,359.75,1.1875,25.5,0.0,-0.02,-0.02
84,359.75,1.1875,25.5,0.01,-0.01,-0.01
85,359.75,1.1875,25.5,0.02,0.0,-0.06
86,359.75,1.1875,25.5,0.02,0.0,-0.06
87,359.75,1.1875,25.5,0.01,0.0,-0.05
88,359.75,1.1875,25.5,0.01,-0.02,-0.04
89,359.75,1.1875,25.5,0.02,-0.01,-0.04
90,359.75,1.1875,25.5,0.02,-0.01,-0.04
91,359.75,1.1875,25.5,0.01,0.0,-0.02
92,359.75,1.1875,25.5,0.01,0.0,-0.04
93,359.75,1.1875,25.5,0.01,0.0,-0.04
94,359.75,1.1875,25.5,0.01,0.0,-0.03
95,359.75,1.1875,25.5,0.0,0.0,-0.02
96,359.75,1.1875,25.5,0.01,0.01,-0.04
97,359.75,1.1875,25.5,0.01,0.01,-0.04
98,359.75,1.1875,25.5,0.0,-0.02,-0.05
99,359.75,1.1875,25.5,0.02,-0.01,-0.04
100,359.75,1.1875,25.5,0.02,-0.01,-0.04
101,359.75,1.1875,25.5,0.02,-0.01,-0.03
102,359.75,1.1875,25.5,0.01,0.0,-0.03
103,359.75,1.1875,25.5,0.01,-0.01,-0.01
104,359.75,1.1875,25.5,0.01,-0.01,-0.01
105,359.75,1.1875,25.5,0.01,-0.01,-0.03
106,359.75,1.1875,25.5,0.01,-0.01,-0.05
107,359.75,1.1875,25.5,0.01,-0.01,-0.05
108,359.75,1.1875,25.5,0.01,0.0,-0.05
109,359.75,1.1875,25.5,0.01,0.0,-0.02
110,359.75,1.1875,25.5,0.02,0.0,-0.03
111,359.75,1.1875,25.5,0.02,0.0,-0.03
112,359.75,1.1875,25.5,0.01,0.01,-0.01
113,359.75,1.1875,25.5,0.0,0.0,-0.04
114,359.75,1.1875,25.5,0.0,0.0,-0.04
115,359.75,1.1875,25.5,0.01,-0.01,-0.02
116,359.75,1.1875,25.5,0.03,0.0,-0.02
117,359.75,1.1875,25.5,0.01,0.0,-0.02
118,359.75,1.1875,25.5,0.01,0.0,-0.02
119,359.75,1.1875,25.5,0.01,0.0,0.0
120,359.75,1.1875,25.5,0.01,0.0,-0.06
121,359.75,1.1875,25.5,0.01,0.0,-0.06
122,359.75,1.1875,25.5,0.02,-0.01,-0.04
123,359.75,1.1875,25.5,0.01,0.01,-0.03
124,359.75,1.1875,25.5,0.02,0.0,0.0
125,359.75,1.1875,25.5,0.02,0.0,0.0
126,359.75,1.1875,25.5,0.01,0.0,-0.03
127,359.75,1.1875,25.5,0.0,0.0,-0.04
128,359.75,1.1875,25.5,0.01,0.0,-0.02
129,359.75,1.1875,25.5,0.01,0.0,-0.02
130,359.75,1.1875,25.5,0.01,0.01,-0.01
131,359.75,1.1875,25.5,0.01,0.01,-0.03
132,359.75,1.1875,25.5,0.02,-0.01,-0.03
133,359.75,1.1875,25.5,0.02,-0.01,-0.03
134,359.75,1.1875,25.5,0.02,-0.01,-0.04
135,359.75,1.1875,25.5,0.0,-0.02,-0.03
136,359.75,1.1875,25.5,0.01,0.0,-0.01
137,359.75,1.1875,25.5,0.0,0.0,-0.04
138,359.75,1.1875,25.5,0.0,0.0,-0.04
139,359.75,1.1875,25.5,0.01,-0.02,-0.03
140,359.75,1.1875,25.5,0.01,-0.02,-0.02
141,359.75,1.1875,25.5,0.01,-0.02,-0.02
142,359.75,1.1875,25.5,0.02,-0.02,-0.04
143,359.75,1.1875,25.5,0.01,-0.01,-0.02
144,359.75,1.1875,25.5,0.01,-0.01,-0.03
145,359.75,1.1875,25.5,0.02,0.0,-0.04
146,359.75,1.1875,25.5,0.01,0.0,-0.03
147,359.75,1.1875,25.5,0.01,0.0,-0.03
148,359.75,1.1875,25.5,0.0,-0.01,-0.02
149,359.75,1.1875,25.5,0.02,0.0,-0.01
150,359.75,1.1875,25.5,0.01,0.0,-0.02
151,359.75,1.1875,25.5,0.02,0.0,-0.03
152,359.75,1.1875,25.5,0.01,0.0,-0.03
153,359.75,1.1875,25.5,0.03,0.0,-0.02
154,359.75,1.1875,25.5,0.01,0.0,-0.04
155,359.75,1.1875,25.5,0.01,0.0,-0.04
156,359.75,1.1875,25.5,0.01,0.0,-0.05
157,359.75,1.1875,25.5,0.01,0.0,-0.05
158,359.75,1.1875,25.5,0.0,-0.01,-0.04
159,359.75,1.1875,25.5,0.01,0.0,-0.01
160,359.75,1.1875,25.5,0.01,0.0,-0.01
161,359.75,1.1875,25.5,0.01,0.0,-0.01
162,359.75,1.1875,25.5,0.01,0.0,-0.03
163,359.75,1.1875,25.5,0.02,-0.01,-0.04
164,359.75,1.1875,25.5,0.02,-0.01,-0.04
165,359.75,1.1875,25.5,0.0,0.0,-0.01
166,359.75,1.1875,25.5,0.02,0.0,0.0
167,359.75,1.1875,25.5,0.02,0.0,0.0
168,359.75,1.1875,25.5,0.0,0.0,0.0
169,359.75,1.1875,25.5,0.0,0.0,-0.03
170,359.75,1.1875,25.5,0.0,0.01,-0.05
171,359.75,1.1875,25.5,0.0,0.01,-0.05
172,359.75,1.1875,25.5,0.01,-0.02,-0.06
173,359.75,1.1875,25.5,0.0,0.0,-0.04
174,359.75,1.1875,25.5,0.0,0.0,-0.04
175,359.75,1.1875,25.5,0.01,-0.01,-0.02
176,359.75,1.1875,25.5,0.01,0.0,0.0
177,359.75,1.1875,25.5,0.0,0.0,-0.02
178,359.75,1.1875,25.5,0.0,0.0,-0.02
179,359.75,1.1875,25.5,0.01,0.0,-0.03
180,359.75,1.1875,25.5,0.01,0.0,-0.03
181,359.75,1.1875,25.5,0.01,0.0,-0.02
182,359.75,1.1875,25.5,0.0,-0.03,-0.07
183,359.75,1.1875,25.5,0.01,0.0,-0.05
184,359.75,1.1875,25.5,0.01,0.0,-0.05
185,359.75,1.1875,25.5,0.01,0.0,-0.02
186,359.75,1.1875,25.5,0.01,0.0,-0.04
187,359.75,1.1875,25.5,0.01,0.0,-0.04
188,359.75,1.1875,25.5,0.01,-0.01,-0.04
189,359.75,1.1875,25.5,0.01,-0.01,-0.04
190,359.75,1.1875,25.5,0.0,0.01,-0.03
191,359.75,1.1875,25.5,0.02,0.0,-0.03
192,359.75,1.1875,25.5,0.01,0.0,-0.01
193,359.75,1.1875,25.5,0.01,0.0,-0.01
194,359.75,1.1875,25.5,0.01,-0.02,-0.05
195,359.75,1.1875,25.5,0.0,0.0,-0.02
196,359.75,1.1875,25.5,0.0,0.0,-0.02
197,359.75,1.1875,25.5,0.01,0.0,-0.02
198,359.75,1.1875,25.5,0.02,0.0,-0.02
199,359.75,1.1875,25.5,0.01,-0.01,-0.01
200,359.75,1.1875,25.5,0.01,-0.01,-0.01
201,359.75,1.1875,25.5,0.0,-0.01,-0.04
202,359.75,1.1875,25.5,0.02,0.0,-0.02
203,359.75,1.1875,25.5,0.02,0.0,-0.02
204,359.75,1.1875,25.5,0.01,-0.01,-0.02
205,359.75,1.1875,25.5,0.0,-0.02,-0.03
206,359.75,1.1875,25.5,0.0,-0.01,-0.07
207,359.75,1.1875,25.5,0.0,-0.01,-0.07
208,359.75,1.1875,25.5,0.01,0.0,-0.01
209,359.75,1.1875,25.5,0.01,0.0,-0.04
210,359.75,1.1875,25.5,0.01,0.0,-0.04
211,359.75,1.1875,25.5,0.0,0.0,-0.03
212,359.75,1.1875,25.5,0.01,-0.01,0.0
213,359.75,1.1875,25.5,0.01,-0.01,-0.04
214,359.75,1.1875,25.5,0.01,-0.01,-0.04
215,359.75,1.1875,25.5,0.01,0.0,-0.06
216,359.75,1.1875,25.5,0.02,-0.01,-0.01
217,359.75,1.1875,25.5,0.02,-0.01,-0.01
218,359.75,1.1875,25.5,0.01,0.0,0.0
219,359.75,1.1875,25.5,0.01,-0.01,-0.01
220,359.75,1.1875,25.5,0.01,-0.01,-0.01
221,359.75,1.1875,25.5,0.02,0.01,-0.04
222,359.75,1.1875,25.5,0.01,0.0,-0.04
223,359.75,1.1875,25.5,0.01,0.0,-0.04
224,359.75,1.1875,25.5,0.01,-0.01,-0.02
225,359.75,1.1875,25.5,0.01,0.0,-0.02
226,359.75,1.1875,25.5,0.01,0.0,-0.01
227,359.75,1.1875,25.5,0.01,0.0,-0.01
228,359.75,1.1875,25.5,0.02,-0.02,-0.04
229,359.75,1.1875,25.5,0.0,-0.01,-0.04
230,359.75,1.1875,25.5,0.0,-0.01,-0.04
231,359.75,1.1875,25.5,0.01,0.0,-0.04
232,359.75,1.1875,25.5,0.01,0.0,-0.04
233,359.75,1.1875,25.5,0.0,0.0,-0.02
234,359.75,1.1875,25.5,0.0,0.0,-0.02
235,359.75,1.1875,25.5,0.01,0.0,-0.01
236,359.75,1.1875,25.5,0.01,0.0,-0.01
237,359.75,1.1875,25.5,0.01,0.0,-0.04
238,359.75,1.1875,25.5,0.01,0.0,-0.03
239,359.75,1.1875,25.5,0.01,0.0,-0.03
240,359.75,1.1875,25.5,0.01,0.0,0.0
241,359.75,1.1875,25.5,0.01,-0.01,-0.02
242,359.75,1.1875,25.5,0.02,-0.01,-0.01
243,359.75,1.1875,25.5,0.02,-0.01,-0.01
244,359.75,1.1875,25.5,0.02,-0.01,-0.06
245,359.75,1.1875,25.5,0.0,-0.01,-0.03
246,359.75,1.1875,25.5,0.0,-0.01,-0.03
247,359.75,1.1875,25.5,0.0,-0.02,-0.01
248,359.75,1.1875,25.5,0.0,0.0,-0.03
249,359.75,1.1875,25.5,0.01,-0.02,-0.03
250,359.75,1.1875,25.5,0.01,-0.02,-0.03
251,359.75,1.1875,25.5,0.01,0.0,-0.04
252,359.75,1.1875,25.5,0.0,-0.01,-0.03
253,359.75,1.1875,25.5,0.0,-0.01,-0.03
254,359.75,1.1875,25.5,0.01,0.0,-0.01
255,359.75,1.1875,25.5,0.0,0.0,-0.02
256,359.75,1.1875,25.5,0.0,0.0,-0.03
257,359.75,1.1875,25.5,0.0,0.0,-0.03
258,359.75,1.1875,25.5,0.02,-0.01,-0.06
259,359.75,1.1875,25.5,0.01,-0.01,-0.05
260,359.75,1.1875,25.5,0.01,-0.01,-0.05
261,359.75,1.1875,25.5,0.0,0.0,-0.04
262,359.75,1.1875,25.5,0.01,0.0,-0.03
263,359.75,1.1875,25.5,0.01,-0.02,-0.01
264,359.75,1.1875,25.5,0.01,-0.02,-0.01
265,359.75,1.1875,25.5,0.01,0.0,-0.05
266,359.75,1.1875,25.5,0.0,0.01,-0.01
267,359.75,1.1875,25.5,0.0,0.01,-0.01
268,359.75,1.1875,25.5,0.01,-0.01,-0.04
269,359.75,1.1875,25.5,0.02,0.0,-0.02
270,359.75,1.1875,25.5,0.01,-0.03,-0.03
271,359.75,1.1875,25.5,0.01,-0.03,-0.03
272,359.75,1.1875,25.5,0.01,-0.02,-0.03
273,359.75,1.1875,25.5,0.0,0.0,-0.05
274,359.75,1.1875,25.5,0.0,-0.01,-0.03
275,359.75,1.1875,25.5,0.0,-0.01,-0.03
276,359.75,1.1875,25.5,0.0,-0.01,-0.03
277,359.75,1.1875,25.5,0.01,0.0,-0.02
278,359.75,1.1875,25.5,0.0,-0.01,-0.03
279,359.75,1.1875,25.5,0.0,-0.01,-0.03
280,359.75,1.1875,25.5,0.01,0.0,-0.05
281,359.75,1.1875,25.5,0.01,0.0,-0.01
282,359.75,1.1875,25.5,0.0,-0.02,-0.02
283,359.75,1.1875,25.5,0.0,-0.01,0.0
284,359.75,1.1875,25.5,0.0,-0.01,0.0
285,359.75,1.1875,25.5,0.0,0.02,-0.06
286,359.75,1.1875,25.5,0.0,0.02,-0.06
287,359.75,1.1875,25.5,0.01,0.0,-0.01
288,359.75,1.1875,25.5,0.0,0.0,-0.03
289,359.75,1.1875,25.5,0.01,-0.01,-0.06
290,359.75,1.1875,25.5,0.01,-0.01,-0.06
291,359.75,1.1875,25.5,0.01,0.0,-0.06
292,359.75,1.1875,25.5,0.01,0.0,-0.01
293,359.75,1.1875,25.5,0.01,0.0,-0.01
294,359.75,1.1875,25.5,0.01,-0.01,-0.05
295,359.75,1.1875,25.5,0.01,0.0,-0.02
296,359.75,1.1875,25.5,0.02,0.0,-0.05
297,359.75,1.1875,25.5,0.02,0.0,-0.05
298,359.75,1.1875,25.5,0.01,0.0,-0.06
299,359.75,1.1875,25.5,0.0,0.0,-0.05
300,359.75,1.1875,25.5,0.0,0.0,-0.05
301,359.75,1.1875,25.5,0.01,-0.01,-0.02
302,359.75,1.1875,25.5,0.01,0.0,-0.01
303,359.75,1.1875,25.5,0.01,0.01,-0.01
304,359.75,1.1875,25.5,0.03,0.0,-0.05
305,359.75,1.1875,25.5,0.03,0.0,-0.05
306,359.75,1.1875,25.5,0.01,-0.01,-0.03
307,359.75,1.1875,25.5,0.01,-0.01,-0.01
308,359.75,1.1875,25.5,0.01,-0.01,-0.01
309,359.75,1.1875,25.5,0.01,-0.02,-0.04
310,359.75,1.1875,25.5,0.01,0.0,-0.02
311,359.75,1.1875,25.5,0.0,0.0,-0.05
312,359.75,1.1875,25.5,0.0,0.0,-0.05
313,359.75,1.1875,25.5,0.01,-0.01,-0.02
314,359.75,1.1875,25.5,0.0,0.0,-0.02
315,359.75,1.1875,25.5,0.01,-0.01,-0.01
316,359.75,1.1875,25.5,0.01,0.0,-0.05
317,359.75,1.1875,25.5,0.01,0.0,-0.05
318,359.75,1.1875,25.5,0.0,-0.01,-0.07
319,359.75,1.1875,25.5,0.01,0.0,-0.03
320,359.75,1.1875,25.5,0.02,-0.02,-0.03
321,359.75,1.1875,25.5,0.02,-0.02,-0.03
322,359.75,1.1875,25.5,0.01,-0.01,-0.02
323,359.75,1.1875,25.5,0.01,0.0,-0.03
324,359.75,1.1875,25.5,0.01,-0.02,-0.02
325,359.75,1.1875,25.5,0.02,0.0,-0.04
326,359.75,1.1875,25.5,0.0,0.0,-0.02
327,359.75,1.1875,25.5,0.01,0.0,-0.04
328,359.75,1.1875,25.5,0.01,0.0,-0.04
329,359.75,1.1875,25.5,0.0,0.0,-0.02
330,359.75,1.1875,25.5,0.03,0.0,-0.02
331,359.75,1.1875,25.5,0.03,0.0,-0.02
332,359.75,1.1875,25.5,0.01,0.0,-0.02
333,359.75,1.1875,25.5,0.01,0.0,-0.02
334,359.75,1.1875,25.5,0.0,-0.02,-0.05
335,359.75,1.1875,25.5,0.01,-0.02,-0.05
336,359.75,1.1875,25.5,0.01,-0.02,-0.05
337,359.75,1.1875,25.5,0.0,0.0,-0.03
338,359.75,1.1875,25.5,0.02,-0.01,-0.02
339,359.75,1.1875,25.5,0.01,0.0,-0.02
340,359.75,1.1875,25.5,0.01,0.0,-0.04
341,359.75,1.1875,25.5,0.01,0.0,-0.04
342,359.75,1.1875,25.5,0.01,0.0,-0.02
343,359.75,1.1875,25.5,0.01,0.0,-0.04
344,359.75,1.1875,25.5,0.01,-0.02,-0.03
345,359.75,1.1875,25.5,0.01,0.01,-0.04
346,359.75,1.1875,25.5,0.01,0.01,-0.04
347,359.75,1.1875,25.5,0.0,0.0,-0.02
348,359.75,1.1875,25.5,0.02,-0.02,-0.01
349,359.75,1.1875,25.5,0.02,-0.02,-0.01
350,359.75,1.1875,25.5,0.03,-0.01,-0.03
351,359.75,1.1875,25.5,0.0,-0.01,-0.01
352,359.75,1.1875,25.5,0.0,0.0,0.0
353,359.75,1.1875,25.5,0.0,0.0,0.0
354,359.75,1.1875,25.5,0.01,0.0,-0.03
355,359.75,1.1875,25.5,0.02,0.0,-0.03
356,359.75,1.1875,25.5,0.01,-0.02,-0.03
357,359.75,1.1875,25.5,0.01,-0.02,-0.03
358,359.75,1.1875,25.5,0.0,0.0,-0.02
359,359.75,1.1875,25.5,0.01,-0.02,-0.02
360,359.75,1.1875,25.5,0.01,-0.02,-0.02
361,359.75,1.1875,25.5,0.0,0.0,-0.01
362,359.75,1.1875,25.5,0.02,-0.01,-0.05
363,359.75,1.1875,25.5,0.02,-0.01,-0.05
364,359.75,1.1875,25.5,0.0,0.0,0.0
365,359.75,1.1875,25.5,0.01,0.0,-0.02
366,359.75,1.1875,25.5,0.04,0.01,-0.02
367,359.75,1.1875,25.5,0.04,0.01,-0.02
368,359.75,1.1875,25.5,0.01,0.0,-0.01
369,359.75,1.1875,25.5,0.01,0.0,-0.01
370,359.75,1.1875,25.5,0.0,0.0,-0.03
371,359.75,1.1875,25.5,0.02,0.0,-0.03
372,359.75,1.1875,25.5,0.02,0.0,-0.03
373,359.75,1.1875,25.5,0.0,-0.01,-0.02
374,359.75,1.1875,25.5,0.01,0.0,-0.02
375,359.75,1.1875,25.5,0.01,0.0,-0.05
376,359.75,1.1875,25.5,0.01,0.0,-0.05
377,359.75,1.1875,25.5,0.0,0.01,-0.01
378,359.75,1.1875,25.5,0.0,0.01,-0.01
379,359.75,1.1875,25.5,0.0,-0.01,-0.01
380,359.75,1.1875,25.5,0.02,0.0,-0.01
381,359.75,1.1875,25.5,0.01,0.0,-0.02
382,359.75,1.1875,25.5,0.01,0.0,-0.02
383,359.75,1.1875,25.5,0.01,0.0,-0.04
384,359.75,1.1875,25.5,0.01,0.0,-0.04
385,359.75,1.1875,25.5,0.01,-0.01,-0.04
386,359.75,1.1875,25.5,0.0,0.0,-0.03
387,359.75,1.1875,25.5,0.0,0.0,-0.03
388,359.75,1.1875,25.5,0.0,-0.01,-0.01
389,359.75,1.1875,25.5,0.01,0.0,-0.01
390,359.75,1.1875,25.5,0.0,0.0,-0.02
391,359.75,1.1875,25.5,0.0,0.0,-0.02
392,359.75,1.1875,25.5,0.01,-0.02,0.0
393,359.75,1.1875,25.5,0.01,0.0,-0.03
394,359.75,1.1875,25.5,0.01,0.0,-0.03
395,359.75,1.1875,25.5,0.01,0.0,-0.01
396,359.75,1.1875,25.5,0.01,-0.01,-0.03
397,359.75,1.1875,25.5,0.01,0.0,-0.03
398,359.75,1.1875,25.5,0.01,0.0,-0.03
399,359.75,1.1875,25.5,0.01,0.0,-0.04
400,359.75,1.1875,25.5,0.01,0.0,-0.04
401,359.75,1.1875,25.5,0.01,0.0,-0.04
402,359.75,1.1875,25.5,0.04,0.0,-0.01
403,359.75,1.1875,25.5,0.02,0.0,-0.03
404,359.75,1.1875,25.5,0.0,-0.01,-0.03
405,359.75,1.1875,25.5,0.0,-0.01,-0.03
406,359.75,1.1875,25.5,0.01,0.0,-0.03
407,359.75,1.1875,25.5,0.01,0.0,-0.03
408,359.75,1.1875,25.5,0.0,-0.02,-0.04
409,359.75,1.1875,25.5,0.02,0.0,-0.03
410,359.75,1.1875,25.5,0.0,0.0,-0.02
411,359.75,1.1875,25.5,0.0,0.0,-0.02
412,359.75,1.1875,25.5,0.01,0.0,-0.02
413,359.75,1.1875,25.5,0.01,0.0,-0.02
414,359.75,1.1875,25.5,0.01,0.0,-0.04
415,359.75,1.1875,25.5,0.01,-0.01,-0.01
416,359.75,1.1875,25.5,0.01,-0.01,-0.01
417,359.75,1.1875,25.5,0.01,0.0,-0.04
418,359.75,1.1875,25.5,0.01,-0.01,0.0
419,359.75,1.1875,25.5,0.01,-0.02,-0.03
420,359.75,1.1875,25.5,0.01,-0.02,-0.03
421,359.75,1.1875,25.5,0.0,0.0,-0.05
422,359.75,1.1875,25.5,0.02,0.0,-0.03
423,359.75,1.1875,25.5,0.02,0.0,-0.03
424,359.75,1.1875,25.5,0.02,0.0,-0.03
425,359.75,1.1875,25.5,0.02,0.0,-0.03
426,359.75,1.1875,25.5,0.0,0.0,-0.01
427,359.75,1.1875,25.5,0.01,-0.01,-0.03
428,359.75,1.1875,25.5,0.01,-0.01,-0.03
429,359.75,1.1875,25.5,0.02,0.0,-0.04
430,359.75,1.1875,25.5,0.01,0.0,-0.02
431,359.75,1.1875,25.5,0.0,0.0,-0.03
432,359.75,1.1875,25.5,0.0,0.0,-0.03
433,359.75,1.1875,25.5,0.01,-0.01,-0.02
434,359.75,1.1875,25.5,0.0,-0.02,-0.04
435,359.75,1.1875,25.5,0.01,0.0,-0.04
436,359.75,1.1875,25.5,0.01,0.0,-0.04
437,359.75,1.1875,25.5,0.01,0.0,-0.01
438,359.75,1.1875,25.5,0.01,0.0,-0.01
439,359.75,1.1875,25.5,0.0,0.0,-0.02
440,359.75,1.1875,25.5,0.0,-0.01,-0.04
441,359.75,1.1875,25.5,0.0,-0.01,-0.04
442,359.75,1.1875,25.5,0.02,-0.01,-0.04
443,359.75,1.1875,25.5,0.01,0.0,-0.02
444,359.75,1.1875,25.5,0.0,0.0,-0.02
445,359.75,1.1875,25.5,0.01,0.0,-0.04
446,359.75,1.1875,25.5,0.01,0.0,-0.05
447,359.75,1.1875,25.5,0.01,0.0,-0.05
448,359.75,1.1875,25.5,0.0,-0.02,-0.04
449,359.75,1.1875,25.5,0.0,-0.01,-0.04
450,359.75,1.1875,25.5,0.01,0.01,0.0
451,359.75,1.1875,25.5,0.01,0.0,-0.02
452,359.75,1.1875,25.5,0.01,0.0,-0.02
453,359.75,1.1875,25.5,0.0,-0.01,-0.04
454,359.75,1.1875,25.5,0.0,0.0,-0.01
455,359.75,1.1875,25.5,0.01,0.0,-0.04
456,359.75,1.1875,25.5,0.02,0.0,-0.03
457,359.75,1.1875,25.5,0.02,0.0,-0.03
458,359.75,1.1875,25.5,0.0,-0.02,-0.01
459,359.75,1.1875,25.5,0.01,-0.01,-0.03
460,359.75,1.1875,25.5,0.01,-0.01,-0.03
461,359.75,1.1875,25.5,0.01,0.0,-0.02
462,359.75,1.1875,25.5,0.01,0.0,-0.02
463,359.75,1.1875,25.5,0.0,0.0,0.0
464,359.75,1.1875,25.5,0.01,0.0,-0.03
465,359.75,1.1875,25.5,0.0,-0.01,-0.02
466,359.75,1.1875,25.5,0.01,-0.01,0.0
467,359.75,1.1875,25.5,0.01,0.01,-0.01
468,359.75,1.1875,25.5,0.0,-0.01,-0.03
469,359.75,1.1875,25.5,0.0,0.0,-0.05
470,359.75,1.1875,25.5,0.0,0.0,-0.05
471,359.75,1.1875,25.5,0.0,0.0,-0.02
472,359.75,1.1875,25.5,0.0,0.0,-0.02
473,359.75,1.1875,25.5,0.02,0.0,-0.03
474,359.75,1.1875,25.5,0.02,0.0,-0.03
475,359.75,1.1875,25.5,0.0,-0.02,-0.03
476,359.75,1.1875,25.5,0.0,-0.02,-0.03
477,359.75,1.1875,25.5,0.01,0.0,-0.03
478,359.75,1.1875,25.5,0.02,0.01,-0.05
479,359.75,1.1875,25.5,0.02,0.01,-0.05
480,359.75,1.1875,25.5,0.02,0.0,-0.03
481,359.75,1.1875,25.5,0.0,0.0,-0.02
482,359.75,1.1875,25.5,0.01,0.0,0.0
483,359.75,1.1875,25.5,0.01,0.0,0.0
484,359.75,1.1875,25.5,0.0,0.0,-0.05
485,359.75,1.1875,25.5,0.0,0.0,-0.05
486,359.75,1.1875,25.5,0.0,-0.01,0.0
487,359.75,1.1875,25.5,0.0,0.0,-0.02
488,359.75,1.1875,25.5,0.01,-0.01,-0.03
489,359.75,1.1875,25.5,0.0,-0.01,-0.01
490,359.75,1.1875,25.5,0.0,-0.01,-0.01
491,359.75,1.1875,25.5,0.01,-0.01,-0.02
492,359.75,1.1875,25.5,0.01,-0.01,-0.02
493,359.75,1.1875,25.5,0.02,-0.01,-0.04
494,359.75,1.1875,25.5,0.02,-0.03,-0.04
495,359.75,1.1875,25.5,0.01,-0.01,-0.04
496,359.75,1.1875,25.5,0.01,-0.01,-0.04
497,359.75,1.1875,25.5,0.01,0.0,-0.04
498,359.75,1.1875,25.5,0.01,0.0,-0.04
499,359.75,1.1875,25.5,0.01,-0.01,-0.02
500,359.75,1.1875,25.5,0.02,-0.02,-0.01
501,359.75,1.1875,25.5,0.02,-0.02,-0.01
502,359.75,1.1875,25.5,0.0,-0.01,-0.01
503,359.75,1.1875,25.5,0.01,-0.02,-0.02
504,359.75,1.1875,25.5,0.01,0.01,0.0
505,359.75,1.1875,25.5,0.01,0.01,0.0
506,359.75,1.1875,25.5,0.0,-0.01,-0.04
507,359.75,1.1875,25.5,0.0,-0.01,-0.04
508,359.75,1.1875,25.5,0.01,-0.02,-0.04
509,359.75,1.1875,25.5,0.01,-0.01,-0.01
510,359.75,1.1875,25.5,0.0,-0.01,-0.03
511,359.75,1.1875,25.5,0.0,-0.01,-0.03
512,359.75,1.1875,25.5,0.0,0.0,-0.03
513,359.75,1.1875,25.5,0.0,0.0,-0.03
514,359.75,1.1875,25.5,0.01,-0.01,-0.02
515,359.75,1.1875,25.5,0.01,-0.01,-0.01
516,359.75,1.1875,25.5,0.01,-0.01,-0.01
517,359.75,1.1875,25.5,0.0,0.0,-0.04
518,359.75,1.1875,25.5,0.01,-0.01,-0.03
519,359.75,1.1875,25.5,0.02,-0.02,-0.04
520,359.75,1.1875,25.5,0.02,-0.02,-0.04
521,359.75,1.1875,25.5,0.0,-0.01,-0.03
522,359.75,1.1875,25.5,0.0,-0.01,-0.03
523,359.75,1.1875,25.5,0.01,-0.02,-0.03
524,359.75,1.1875,25.5,0.01,0.0,-0.01
525,359.75,1.1875,25.5,0.0,-0.02,-0.04
526,359.75,1.1875,25.5,0.0,-0.02,-0.04
527,359.75,1.1875,25.5,0.01,-0.01,-0.03
528,359.75,1.1875,25.5,0.01,0.0,-0.06
529,359.75,1.1875,25.5,0.01,0.0,-0.06
530,359.75,1.1875,25.5,0.0,0.0,-0.02
531,359.75,1.1875,25.5,0.01,0.0,-0.02
532,359.75,1.1875,25.5,0.01,0.0,-0.02
533,359.75,1.1875,25.5,0.01,0.0,-0.02
534,359.75,1.1875,25.5,0.01,0.0,-0.01
535,359.75,1.1875,25.5,0.01,0.0,-0.01
536,359.75,1.1875,25.5,0.01,0.0,-0.04
537,359.75,1.1875,25.5,0.01,-0.01,-0.01
538,359.75,1.1875,25.5,0.01,-0.01,-0.01
539,359.75,1.1875,25.5,0.01,0.0,-0.02
540,359.75,1.1875,25.5,0.0,-0.01,-0.03
541,359.75,1.1875,25.5,0.01,-0.01,-0.03
542,359.75,1.1875,25.5,0.0,0.0,-0.04
543,359.75,1.1875,25.5,0.0,0.0,-0.04
544,359.75,1.1875,25.5,0.0,-0.01,-0.03
545,359.75,1.1875,25.5,0.0,-0.01,-0.03
546,359.75,1.1875,25.5,0.0,-0.01,-0.04
547,359.75,1.1875,25.5,0.02,-0.01,-0.01
548,359.75,1.1875,25.5,0.0,0.01,-0.04
549,359.75,1.1875,25.5,0.0,0.01,-0.04
550,359.75,1.1875,25.5,0.0,-0.03,-0.06
551,359.75,1.1875,25.5,0.0,-0.03,-0.06
552,359.75,1.1875,25.5,0.01,-0.02,-0.04
553,359.75,1.1875,25.5,0.01,0.0,-0.02
554,359.75,1.1875,25.5,0.01,0.0,0.0
555,359.75,1.1875,25.5,0.01,0.0,0.0
556,359.75,1.1875,25.5,0.03,-0.01,-0.04
557,359.75,1.1875,25.5,0.02,-0.01,-0.02
558,359.75,1.1875,25.5,0.02,-0.01,-0.02
559,359.75,1.1875,25.5,0.02,0.0,-0.01
560,359.75,1.1875,25.5,0.01,-0.01,-0.05
561,359.75,1.1875,25.5,0.02,0.0,-0.02
562,359.75,1.1875,25.5,0.02,0.0,-0.02
563,359.75,1.1875,25.5,0.0,0.0,-0.02
564,359.75,1.1875,25.5,0.0,0.0,-0.05
565,359.75,1.1875,25.5,0.0,0.0,-0.05
566,359.75,1.1875,25.5,0.01,0.0,-0.02
567,359.75,1.1875,25.5,0.0,-0.02,-0.02
568,359.75,1.1875,25.5,0.02,-0.01,-0.03
569,359.75,1.1875,25.5,0.02,-0.01,-0.03
570,359.75,1.1875,25.5,0.01,-0.02,-0.03
571,359.75,1.1875,25.5,0.0,-0.02,-0.04
572,359.75,1.1875,25.5,0.0,-0.02,-0.04
573,359.75,1.1875,25.5,0.01,-0.01,-0.04
574,359.75,1.1875,25.5,0.01,0.0,-0.03
575,359.75,1.1875,25.5,0.01,-0.01,-0.02
576,359.75,1.1875,25.5,0.01,-0.01,-0.02
577,359.75,1.1875,25.5,0.01,-0.01,-0.01
578,359.75,1.1875,25.5,0.01,-0.01,-0.04
579,359.75,1.1875,25.5,0.01,-0.01,-0.04
580,359.75,1.1875,25.5,0.01,0.0,-0.04
581,359.75,1.1875,25.5,0.02,-0.02,-0.03
582,359.75,1.1875,25.5,0.01,0.0,-0.03
583,359.75,1.1875,25.5,0.0,0.0,-0.04
584,359.75,1.1875,25.5,0.0,0.0,-0.04
585,359.75,1.1875,25.5,0.01,-0.01,-0.02
586,359.75,1.1875,25.5,0.0,0.01,-0.03
587,359.75,1.1875,25.5,0.0,0.01,-0.03
588,359.75,1.1875,25.5,0.0,-0.02,-0.01
589,359.75,1.1875,25.5,0.0,0.0,0.0
590,359.75,1.1875,25.5,0.0,-0.01,-0.02
591,359.75,1.1875,25.5,0.0,-0.01,-0.02
592,359.75,1.1875,25.5,0.01,-0.03,-0.04
593,359.75,1.1875,25.5,0.01,-0.01,-0.06
594,359.75,1.1875,25.5,0.01,-0.01,-0.06
595,359.75,1.1875,25.5,0.0,0.0,-0.01
596,359.75,1.1875,25.5,0.0,0.0,-0.04
597,359.75,1.1875,25.5,0.01,0.0,-0.01
598,359.75,1.1875,25.5,0.03,0.0,-0.04
599,359.75,1.1875,25.5,0.02,0.0,-0.03
600,359.75,1.1875,25.5,0.02,0.0,-0.03
601,359.75,1.1875,25.5,0.01,-0.02,0.0
602,359.75,1.1875,25.5,0.01,-0.02,-0.02
603,359.75,1.1875,25.5,0.0,-0.01,-0.04
604,359.75,1.1875,25.5,0.0,-0.01,-0.04
605,359.75,1.1875,25.5,0.0,0.0,-0.04
606,359.75,1.1875,25.5,0.0,0.0,-0.03
607,359.75,1.1875,25.5,0.0,0.0,-0.03
608,359.75,1.1875,25.5,0.01,-0.01,-0.02
609,359.75,1.1875,25.5,0.01,0.0,-0.02
610,359.75,1.1875,25.5,0.0,0.0,-0.06
611,359.75,1.1875,25.5,0.0,0.0,-0.06
612,359.75,1.1875,25.5,0.02,-0.01,-0.03
613,359.75,1.1875,25.5,0.0,0.0,-0.04
614,359.75,1.1875,25.5,0.01,0.0,-0.04
615,359.75,1.1875,25.5,0.0,0.0,-0.04
616,359.75,1.1875,25.5,0.0,0.0,-0.04
617,359.75,1.1875,25.5,0.02,-0.02,-0.02
618,359.75,1.1875,25.5,0.02,-0.01,-0.02
619,359.75,1.1875,25.5,0.02,-0.01,-0.02
620,359.75,1.1875,25.5,0.02,0.0,-0.03
621,359.75,1.1875,25.5,0.01,0.0,0.0
622,359.75,1.1875,25.5,0.01,0.0,-0.02
623,359.75,1.1875,25.5,0.01,0.0,-0.02
624,359.75,1.1875,25.5,0.0,0.01,-0.03
625,359.75,1.1875,25.5,0.0,0.01,-0.03
626,359.75,1.1875,25.5,0.02,0.01,-0.04
627,359.75,1.1875,25.5,0.02,0.01,-0.04
628,359.75,1.1875,25.5,0.0,0.0,-0.03
629,359.75,1.1875,25.5,0.02,-0.01,-0.05
630,359.75,1.1875,25.5,0.02,0.0,-0.02
631,359.75,1.1875,25.5,0.01,-0.01,-0.01
632,359.75,1.1875,25.5,0.01,0.0,-0.04
633,359.75,1.1875,25.5,0.0,-0.02,0.0
634,359.75,1.1875,25.5,0.0,-0.02,-0.04
635,359.75,1.1875,25.5,0.0,-0.02,-0.04
636,359.75,1.1875,25.5,0.01,0.0,-0.04
637,359.75,1.1875,25.5,0.0,0.0,-0.03
638,359.75,1.1875,25.5,0.01,-0.01,-0.02
639,359.75,1.1875,25.5,0.01,-0.01,-0.02
640,359.75,1.1875,25.5,0.01,-0.01,-0.02
641,359.75,1.1875,25.5,0.0,0.0,-0.05
642,359.75,1.1875,25.5,0.0,0.0,-0.05
643,359.75,1.1875,25.5,0.02,0.0,-0.03
644,359.75,1.1875,25.5,0.01,0.0,-0.03
645,359.75,1.1875,25.5,0.0,-0.01,-0.04
646,359.75,1.1875,25.5,0.01,0.0,-0.04
647,359.75,1.1875,25.5,0.01,0.0,-0.04
648,359.75,1.1875,25.5,0.0,0.0,-0.03
649,359.75,1.1875,25.5,0.0,0.0,-0.03
650,359.75,1.1875,25.5,0.0,-0.02,-0.05
651,359.75,1.1875,25.5,0.01,0.0,-0.03
652,359.75,1.1875,25.5,0.01,0.0,-0.03
653,359.75,1.1875,25.5,0.01,0.0,-0.03
654,359.75,1.1875,25.5,0.01,-0.01,-0.03
655,359.75,1.1875,25.5,0.03,-0.01,-0.04
656,359.75,1.1875,25.5,0.01,0.0,-0.01
657,359.75,1.1875,25.5,0.01,0.0,-0.01
658,359.75,1.1875,25.5,0.02,0.0,-0.04
659,359.75,1.1875,25.5,0.01,-0.01,0.0
660,359.75,1.1875,25.5,0.01,-0.01,0.0
661,359.75,1.1875,25.5,0.01,0.01,-0.01
662,359.75,1.1875,25.5,0.0,-0.02,-0.07
663,359.75,1.1875,25.5,0.0,-0.02,-0.07
664,359.75,1.1875,25.5,0.02,-0.01,-0.01
665,359.75,1.1875,25.5,0.01,0.0,-0.02
666,359.75,1.1875,25.5,0.01,0.0,-0.01
667,359.75,1.1875,25.5,0.0,0.0,-0.04
668,359.75,1.1875,25.5,0.0,0.0,-0.04
669,359.75,1.1875,25.5,0.01,-0.01,-0.04
670,359.75,1.1875,25.5,0.01,-0.01,-0.04
671,359.75,1.1875,25.5,0.0,0.0,-0.03
672,359.75,1.1875,25.5,0.01,-0.01,-0.03
673,359.75,1.1875,25.5,0.01,-0.02,-0.04
674,359.75,1.1875,25.5,0.01,-0.02,-0.04
675,359.75,1.1875,25.5,0.01,0.0,-0.02
676,359.75,1.1875,25.5,0.01,-0.01,-0.03
677,359.75,1.1875,25.5,0.01,-0.01,-0.03
678,359.75,1.1875,25.5,0.0,-0.02,-0.03
679,359.75,1.1875,25.5,0.0,-0.02,-0.03
680,359.75,1.1875,25.5,0.01,0.0,-0.03
681,359.75,1.1875,25.5,0.01,0.0,-0.03
682,359.75,1.1875,25.5,0.01,0.0,-0.06
683,359.75,1.1875,25.5,0.01,0.0,-0.04
684,359.75,1.1875,25.5,0.01,0.0,-0.04
685,359.75,1.1875,25.5,0.01,0.0,-0.02
686,359.75,1.1875,25.5,0.01,0.01,-0.01
687,359.75,1.1875,25.5,0.01,-0.02,-0.02
688,359.75,1.1875,25.5,0.01,-0.02,-0.02
689,359.75,1.1875,25.5,0.0,0.0,-0.03
690,359.75,1.1875,25.5,0.02,0.0,-0.02
691,359.75,1.1875,25.5,0.02,0.0,-0.02
692,359.75,1.1875,25.5,0.03,-0.01,-0.01
693,359.75,1.1875,25.5,0.0,0.0,-0.02
694,359.75,1.1875,25.5,0.0,0.01,-0.03
695,359.75,1.1875,25.5,0.0,0.01,-0.03
696,359.75,1.1875,25.5,0.02,0.0,-0.07
697,359.75,1.1875,25.5,0.01,0.0,-0.01
698,359.75,1.1875,25.5,0.01,0.0,-0.01
699,359.75,1.1875,25.5,0.01,-0.02,-0.06
700,359.75,1.1875,25.5,0.0,0.0,-0.02
701,359.75,1.1875,25.5,0.0,0.0,0.0
702,359.75,1.1875,25.5,0.0,0.0,0.0
703,359.75,1.1875,25.5,0.02,0.01,-0.04
704,359.75,1.1875,25.5,0.0,0.01,-0.02
705,359.75,1.1875,25.5,0.0,0.01,-0.02
706,359.75,1.1875,25.5,0.01,-0.02,-0.05
707,359.75,1.1875,25.5,0.0,-0.01,-0.01
708,359.75,1.1875,25.5,0.01,0.0,-0.01
709,359.75,1.1875,25.5,0.0,0.0,-0.01
710,359.75,1.1875,25.5,0.0,0.0,-0.01
711,359.75,1.1875,25.5,-0.01,-0.01,-0.05
712,359.75,1.1875,25.5,0.01,-0.01,-0.01
713,359.75,1.1875,25.5,0.02,0.0,-0.03
714,359.75,1.1875,25.5,0.01,-0.01,-0.01
715,359.75,1.1875,25.5,0.01,-0.02,-0.05
716,359.75,1.1875,25.5,0.01,-0.02,-0.05
717,359.75,1.1875,25.5,0.01,0.0,-0.03
718,359.75,1.1875,25.5,0.01,-0.02,-0.04
719,359.75,1.1875,25.5,0.02,0.0,-0.01
720,359.75,1.1875,25.5,0.0,0.0,-0.01
721,359.75,1.1875,25.5,0.0,0.0,-0.01
722,359.75,1.1875,25.5,0.01,0.0,-0.05
723,359.75,1.1875,25.5,0.01,0.0,-0.01
724,359.75,1.1875,25.5,0.03,0.01,-0.01
725,359.75,1.1875,25.5,0.01,0.0,-0.01
726,359.75,1.1875,25.5,0.01,0.0,-0.01
727,359.75,1.1875,25.5,0.0,-0.01,-0.01
728,359.75,1.1875,25.5,0.01,0.0,-0.02
729,359.75,1.1875,25.5,0.01,0.0,-0.02
730,359.75,1.1875,25.5,0.0,-0.01,-0.02
731,359.75,1.1875,25.5,0.0,0.01,-0.01
732,359.75,1.1875,25.5,0.01,-0.01,-0.03
733,359.75,1.1875,25.5,0.01,-0.01,-0.03
734,359.75,1.1875,25.5,0.0,-0.01,-0.03
735,359.75,1.1875,25.5,0.0,0.0,-0.01
736,359.75,1.1875,25.5,0.0,0.0,-0.01
737,359.75,1.1875,25.5,0.0,-0.01,-0.01
738,359.75,1.1875,25.5,0.02,0.0,-0.03
739,359.75,1.1875,25.5,0.02,0.0,-0.03
740,359.75,1.1875,25.5,0.01,0.01,-0.05
741,359.75,1.1875,25.5,0.0,-0.02,-0.04
742,359.75,1.1875,25.5,0.01,-0.01,-0.02
743,359.75,1.1875,25.5,0.01,0.01,-0.01
744,359.75,1.1875,25.5,0.01,0.0,-0.04
745,359.75,1.1875,25.5,0.01,0.0,-0.04
746,359.75,1.1875,25.5,0.01,0.0,-0.04
747,359.75,1.1875,25.5,0.01,-0.01,-0.01
748,359.75,1.1875,25.5,0.03,0.0,-0.04
749,359.75,1.1875,25.5,0.02,-0.02,-0.02
750,359.75,1.1875,25.5,0.02,-0.02,-0.02
751,359.75,1.1875,25.5,0.0,-0.01,-0.04
752,359.75,1.1875,25.5,0.01,0.0,-0.03
753,359.75,1.1875,25.5,0.01,0.0,-0.03
754,359.75,1.1875,25.5,0.02,-0.02,-0.02
755,359.75,1.1875,25.5,0.02,-0.02,-0.02
756,359.75,1.1875,25.5,0.02,-0.02,-0.03
757,359.75,1.1875,25.5,0.0,-0.01,-0.04
758,359.75,1.1875,25.5,0.0,-0.01,-0.04
759,359.75,1.1875,25.5,0.01,-0.01,-0.04
760,359.75,1.1875,25.5,0.01,0.0,-0.01
761,359.75,1.1875,25.5,0.02,-0.01,-0.01
762,359.75,1.1875,25.5,0.0,-0.02,-0.01
763,359.75,1.1875,25.5,0.01,0.0,-0.05
764,359.75,1.1875,25.5,0.01,0.0,-0.05
765,359.75,1.1875,25.5,0.0,-0.01,-0.05
766,359.75,1.1875,25.5,0.01,-0.01,-0.03
767,359.75,1.1875,25.5,0.01,0.0,-0.04
768,359.75,1.1875,25.5,0.01,0.0,-0.04
769,359.75,1.1875,25.5,0.0,-0.02,-0.04
770,359.75,1.1875,25.5,0.0,-0.02,-0.04
771,359.75,1.1875,25.5,0.0,0.0,-0.04
772,359.75,1.1875,25.5,0.01,-0.01,-0.05
773,359.75,1.1875,25.5,0.01,-0.01,-0.05
774,359.75,1.1875,25.5,0.01,0.0,-0.01
775,359.75,1.1875,25.5,0.01,-0.01,-0.03
776,359.75,1.1875,25.5,0.01,0.0,-0.02
777,359.75,1.1875,25.5,0.01,0.0,-0.02
778,359.75,1.1875,25.5,0.0,-0.01,-0.04
779,359.75,1.1875,25.5,0.01,-0.01,-0.04
780,359.75,1.1875,25.5,0.01,-0.02,-0.02
781,359.75,1.1875,25.5,0.01,0.0,-0.02
782,359.75,1.1875,25.5,0.01,0.0,-0.02
783,359.75,1.1875,25.5,0.02,-0.03,-0.01
784,359.75,1.1875,25.5,0.02,-0.03,-0.01
785,359.75,1.1875,25.5,0.01,-0.02,-0.06
786,359.75,1.1875,25.5,0.02,0.0,-0.03
787,359.75,1.1875,25.5,0.02,0.0,-0.03
788,359.75,1.1875,25.5,0.01,-0.01,-0.06
789,359.75,1.1875,25.5,0.0,0.0,-0.04
790,359.75,1.1875,25.5,0.0,0.0,-0.06
791,359.75,1.1875,25.5,0.0,0.0,-0.06
792,359.75,1.1875,25.5,0.01,0.0,-0.05
793,359.75,1.1875,25.5,0.01,0.0,-0.05
794,359.75,1.1875,25.5,0.01,-0.01,-0.01
795,359.75,1.1875,25.5,0.01,-0.02,-0.03
796,359.75,1.1875,25.5,0.01,-0.01,-0.01
797,359.75,1.1875,25.5,0.01,-0.01,-0.01
798,359.75,1.1875,25.5,0.01,-0.04,-0.01
799,359.75,1.1875,25.5,0.01,0.0,-0.06
800,359.75,1.1875,25.5,0.01,0.0,-0.06
801,359.75,1.1875,25.5,0.01,0.0,-0.03
802,359.75,1.1875,25.5,0.0,-0.01,-0.01
803,359.75,1.1875,25.5,0.02,-0.02,-0.01
804,359.75,1.1875,25.5,0.0,-0.01,-0.03
805,359.75,1.1875,25.5,0.0,-0.01,-0.03
806,359.75,1.1875,25.5,0.02,-0.02,-0.06
807,359.75,1.1875,25.5,0.02,-0.02,-0.06
808,359.75,1.1875,25.5,0.0,-0.01,-0.01
809,359.75,1.1875,25.5,0.01,0.0,-0.01
810,359.75,1.1875,25.5,0.01,-0.01,-0.02
811,359.75,1.1875,25.5,0.01,-0.01,-0.02
812,359.75,1.1875,25.5,0.01,-0.01,-0.02
813,359.75,1.1875,25.5,0.01,0.0,-0.05
814,359.75,1.1875,25.5,0.01,0.0,-0.05
815,359.75,1.1875,25.5,0.01,-0.02,-0.05
816,359.75,1.1875,25.5,0.02,0.0,0.0
817,359.75,1.1875,25.5,0.01,0.0,-0.03
818,359.75,1.1875,25.5,0.01,0.0,-0.03
819,359.75,1.1875,25.5,0.0,0.0,-0.02
820,359.75,1.1875,25.5,0.0,0.01,-0.03
821,359.75,1.1875,25.5,0.0,0.01,-0.03
822,359.75,1.1875,25.5,0.0,0.0,-0.03
823,359.75,1.1875,25.5,0.02,-0.01,-0.01
824,359.75,1.1875,25.5,0.0,-0.02,-0.01
825,359.75,1.1875,25.5,0.0,-0.02,-0.01
826,359.75,1.1875,25.5,0.0,-0.01,-0.04
827,359.75,1.1875,25.5,0.0,-0.01,-0.04
828,359.75,1.1875,25.5,0.0,-0.01,-0.05
829,359.75,1.1875,25.5,0.01,-0.01,-0.04
830,359.75,1.1875,25.5,0.01,-0.01,-0.04
831,359.75,1.1875,25.5,0.01,0.0,-0.01
832,359.75,1.1875,25.5,0.0,0.0,-0.02
833,359.75,1.1875,25.5,0.0,0.0,-0.02
834,359.75,1.1875,25.5,0.01,0.0,-0.03
835,359.75,1.1875,25.5,0.01,-0.01,-0.03
836,359.75,1.1875,25.5,0.01,-0.01,-0.03
837,359.75,1.1875,25.5,0.02,0.0,-0.04
838,359.75,1.1875,25.5,0.01,0.0,-0.04
839,359.75,1.1875,25.5,0.01,0.0,-0.02
840,359.75,1.1875,25.5,0.01,0.0,-0.02
841,359.75,1.1875,25.5,0.0,0.0,-0.02
842,359.75,1.1875,25.5,0.02,0.01,-0.05
843,359.75,1.1875,25.5,0.02,0.01,-0.05
844,359.75,1.1875,25.5,0.0,-0.01,-0.01
845,359.75,1.1875,25.5,0.0,-0.01,-0.01
846,359.75,1.1875,25.5,0.02,-0.01,-0.05
847,359.75,1.1875,25.5,0.02,-0.01,-0.05
848,359.75,1.1875,25.5,0.02,-0.01,0.0
849,359.75,1.1875,25.5,0.02,0.0,-0.03
850,359.75,1.1875,25.5,0.02,0.0,-0.03
851,359.75,1.1875,25.5,0.01,0.0,-0.03
852,359.75,1.1875,25.5,0.02,0.0,-0.05
853,359.75,1.1875,25.5,0.01,0.0,-0.01
854,359.75,1.1875,25.5,0.01,0.0,-0.01
855,359.75,1.1875,25.5,0.01,0.0,-0.02
856,359.75,1.1875,25.5,0.0,-0.01,-0.03
857,359.75,1.1875,25.5,0.0,-0.01,-0.03
858,359.75,1.1875,25.5,0.01,0.0,-0.03
859,359.75,1.1875,25.5,0.01,0.0,-0.02
860,359.75,1.1875,25.5,0.01,0.0,-0.02
861,359.75,1.1875,25.5,0.01,0.0,-0.02
862,359.75,1.1875,25.5,0.01,0.0,-0.01
863,359.75,1.1875,25.5,0.01,-0.01,-0.02
864,359.75,1.1875,25.5,0.01,-0.01,-0.02
865,359.75,1.1875,25.5,0.02,-0.01,-0.01
866,359.75,1.1875,25.5,0.0,0.01,-0.03
867,359.75,1.1875,25.5,0.01,0.01,-0.02
868,359.75,1.1875,25.5,0.01,0.0,-0.01
869,359.75,1.1875,25.5,0.01,0.0,-0.02
870,359.75,1.1875,25.5,0.01,0.0,-0.02
871,359.75,1.1875,25.5,0.01,-0.01,-0.02
872,359.75,1.1875,25.5,0.0,0.0,-0.02
873,359.75,1.1875,25.5,0.0,0.01,-0.03
874,359.75,1.1875,25.5,0.01,0.0,-0.05
875,359.75,1.1875,25.5,0.0,-0.01,-0.04
876,359.75,1.1875,25.5,0.0,-0.01,-0.04
877,359.75,1.1875,25.5,0.01,0.0,-0.01
878,359.75,1.1875,25.5,0.01,0.01,-0.03
879,359.75,1.1875,25.5,0.0,0.0,-0.03
880,359.75,1.1875,25.5,0.03,-0.01,-0.03
881,359.75,1.1875,25.5,0.01,-0.01,-0.04
882,359.75,1.1875,25.5,0.01,-0.01,-0.04
883,359.75,1.1875,25.5,0.01,0.0,0.0
884,359.75,1.1875,25.5,0.0,-0.01,0.0
885,359.75,1.1875,25.5,0.0,-0.01,0.0
886,359.75,1.1875,25.5,0.01,0.01,-0.04
887,359.75,1.1875,25.5,0.01,0.0,-0.07
888,359.75,1.1875,25.5,0.01,0.0,-0.07
889,359.75,1.1875,25.5,0.03,0.0,-0.03
890,359.75,1.1875,25.5,0.02,0.0,-0.02
891,359.75,1.1875,25.5,0.0,-0.01,0.0
892,359.75,1.1875,25.5,0.0,0.0,-0.04
893,359.75,1.1875,25.5,0.0,0.0,-0.04
894,359.75,1.1875,25.5,0.01,-0.02,-0.04
895,359.75,1.1875,25.5,0.01,0.0,-0.05
896,359.75,1.1875,25.5,0.01,0.0,-0.05
897,359.75,1.1875,25.5,0.02,0.0,-0.03
898,359.75,1.1875,25.5,0.02,0.0,-0.03
899,359.75,1.1875,25.5,0.01,-0.01,-0.04
900,359.75,1.1875,25.5,0.0,0.0,-0.04
901,359.75,1.1875,25.5,0.0,0.0,-0.04
902,359.75,1.1875,25.5,0.01,0.0,-0.01
903,359.75,1.1875,25.5,0.0,0.0,-0.03
904,359.75,1.1875,25.5,0.01,0.01,-0.02
905,359.75,1.1875,25.5,0.02,0.0,0.0
906,359.75,1.1875,25.5,0.01,-0.01,-0.04
907,359.75,1.1875,25.5,0.01,0.0,0.0
908,359.75,1.1875,25.5,0.01,0.0,0.0
909,359.75,1.1875,25.5,0.01,0.0,-0.03
910,359.75,1.1875,25.5,0.01,0.0,-0.03
911,359.75,1.1875,25.5,0.0,0.0,-0.02
912,359.75,1.1875,25.5,0.02,0.0,-0.05
913,359.75,1.1875,25.5,0.02,0.0,-0.05
914,359.75,1.1875,25.5,0.0,0.0,-0.04
915,359.75,1.1875,25.5,0.01,-0.01,-0.01
916,359.75,1.1875,25.5,0.0,0.0,-0.04
917,359.75,1.1875,25.5,0.0,0.0,-0.03
918,359.75,1.1875,25.5,0.0,0.0,-0.03
919,359.75,1.1875,25.5,0.01,0.01,-0.04
920,359.75,1.1875,25.5,0.01,0.0,-0.03
921,359.75,1.1875,25.5,0.0,0.0,-0.03
922,359.75,1.1875,25.5,0.01,0.0,-0.03
923,359.75,1.1875,25.5,0.01,0.0,-0.03
924,359.75,1.1875,25.5,0.0,0.0,-0.01
925,359.75,1.1875,25.5,0.02,-0.02,-0.04
926,359.75,1.1875,25.5,0.01,0.0,-0.04
927,359.75,1.1875,25.5,0.02,0.0,-0.03
928,359.75,1.1875,25.5,0.01,-0.01,-0.06
929,359.75,1.1875,25.5,0.01,-0.01,-0.05
930,359.75,1.1875,25.5,0.01,-0.01,-0.05
931,359.75,1.1875,25.5,0.02,0.0,-0.04
932,359.75,1.1875,25.5,0.0,0.0,-0.04
933,359.75,1.1875,25.5,0.0,0.0,-0.04
934,359.75,1.1875,25.5,0.0,0.0,0.0
935,359.75,1.1875,25.5,0.01,0.0,-0.02
936,359.75,1.1875,25.5,0.02,0.0,-0.02
937,359.75,1.1875,25.5,0.02,0.0,-0.02
938,359.75,1.1875,25.5,0.01,-0.01,-0.03
939,359.75,1.1875,25.5,0.01,-0.01,-0.02
940,359.75,1.1875,25.5,0.01,0.0,-0.03
941,359.75,1.1875,25.5,0.01,0.01,-0.01
942,359.75,1.1875,25.5,0.01,-0.01,-0.02
943,359.75,1.1875,25.5,0.0,0.0,-0.05
944,359.75,1.1875,25.5,0.0,0.0,-0.05
945,359.75,1.1875,25.5,0.01,-0.01,-0.03
946,359.75,1.1875,25.5,0.01,-0.01,-0.03
947,359.75,1.1875,25.5,0.01,-0.03,-0.02
948,359.75,1.1875,25.5,0.0,0.0,-0.02
949,359.75,1.1875,25.5,0.02,0.0,-0.04
950,359.75,1.1875,25.5,0.02,0.0,-0.04
951,359.75,1.1875,25.5,0.01,0.0,-0.05
952,359.75,1.1875,25.5,0.0,0.01,-0.03
953,359.75,1.1875,25.5,0.0,0.01,-0.03
954,359.75,1.1875,25.5,0.01,0.0,0.0
955,359.75,1.1875,25.5,0.01,0.0,-0.02
956,359.75,1.1875,25.5,0.01,0.0,-0.02
957,359.75,1.1875,25.5,0.01,0.0,-0.02
958,359.75,1.1875,25.5,0.01,0.0,-0.04
959,359.75,1.1875,25.5,0.01,0.0,-0.04
960,359.75,1.1875,25.5,0.01,0.0,-0.05
961,359.75,1.1875,25.5,0.01,0.0,-0.01
962,359.75,1.1875,25.5,0.01,-0.01,-0.01
963,359.75,1.1875,25.5,0.01,-0.01,-0.01
964,359.75,1.1875,25.5,0.01,0.0,-0.01
965,359.75,1.1875,25.5,0.01,0.0,-0.01
966,359.75,1.1875,25.5,0.01,0.0,-0.04
967,359.75,1.1875,25.5,0.01,0.0,0.0
968,359.75,1.1875,25.5,0.01,0.0,-0.03
969,359.75,1.1875,25.5,0.01,0.0,-0.04
970,359.75,1.1875,25.5,0.01,0.0,-0.04
971,359.75,1.1875,25.5,0.01,0.0,-0.03
972,359.75,1.1875,25.5,0.01,0.0,-0.03
973,359.75,1.1875,25.5,0.0,0.0,-0.02
974,359.75,1.1875,25.5,0.01,0.0,-0.05
975,359.75,1.1875,25.5,0.01,0.0,-0.05
976,359.75,1.1875,25.5,0.02,0.0,-0.01
977,359.75,1.1875,25.5,0.02,0.0,-0.01
978,359.75,1.1875,25.5,0.01,0.0,-0.02
979,359.75,1.1875,25.5,0.01,0.0,-0.02
980,359.75,1.1875,25.5,0.01,-0.01,-0.02
981,359.75,1.1875,25.5,0.0,-0.01,-0.05
982,359.75,1.1875,25.5,0.01,-0.01,-0.01
983,359.75,1.1875,25.5,0.02,0.01,-0.05
984,359.75,1.1875,25.5,0.02,0.01,-0.05
985,359.75,1.1875,25.5,0.01,0.0,0.0
986,359.75,1.1875,25.5,0.0,-0.02,-0.05
987,359.75,1.1875,25.5,0.0,-0.02,-0.05
988,359.75,1.1875,25.5,0.0,0.0,-0.03
989,359.75,1.1875,25.5,0.01,0.0,-0.04
990,359.75,1.1875,25.5,0.0,0.0,-0.03
991,359.75,1.1875,25.5,0.0,0.0,-0.03
992,359.75,1.1875,25.5,0.01,0.0,-0.04
993,359.75,1.1875,25.5,0.01,0.0,-0.03
994,359.75,1.1875,25.5,0.01,0.0,-0.03
995,359.75,1.1875,25.5,0.01,-0.01,-0.01
996,359.75,1.1875,25.5,0.01,-0.01,-0.03
997,359.75,1.1875,25.5,0.01,0.0,-0.03
998,359.75,1.1875,25.5,0.01,0.0,-0.01
999,359.75,1.1875,25.5,0.01,0.0,-0.01
1000,359.75,1.1875,25.5,0.01,-0.01,-0.03
1001,359.75,1.1875,25.5,0.01,-0.01,-0.03
1002,359.75,1.1875,25.5,0.01,0.0,-0.03
1003,359.75,1.1875,25.5,0.01,0.0,-0.02
1004,359.75,1.1875,25.5,0.01,0.0,-0.04
1005,359.75,1.1875,25.5,0.01,0.0,-0.01
1006,359.75,1.1875,25.5,0.01,0.0,-0.01
1007,359.75,1.1875,25.5,0.02,0.0,-0.03
1008,359.75,1.1875,25.5,0.01,-0.03,-0.03
1009,359.75,1.1875,25.5,0.01,-0.03,-0.03
1010,359.75,1.1875,25.5,0.0,0.0,-0.05
1011,359.75,1.1875,25.5,0.01,0.0,-0.03
1012,359.75,1.1875,25.5,0.01,0.01,-0.02
1013,359.75,1.1875,25.5,0.01,0.0,-0.04
1014,359.75,1.1875,25.5,0.01,0.0,-0.04
1015,359.75,1.1875,25.5,0.01,0.0,-0.03
1016,359.75,1.1875,25.5,0.01,-0.02,-0.03
1017,359.75,1.1875,25.5,0.01,-0.01,-0.01
1018,359.75,1.1875,25.5,0.01,-0.01,-0.01
1019,359.75,1.1875,25.5,0.02,-0.01,-0.03
1020,359.75,1.1875,25.5,0.02,-0.01,-0.03
1021,359.75,1.1875,25.5,0.0,-0.01,-0.04
1022,359.75,1.1875,25.5,0.0,0.0,-0.05
1023,359.75,1.1875,25.5,0.0,0.0,-0.05
1024,359.75,1.1875,25.5,0.01,-0.02,-0.05
1025,359.75,1.1875,25.5,0.02,0.0,-0.01
1026,359.75,1.1875,25.5,0.01,-0.01,-0.03
1027,359.75,1.1875,25.5,0.01,-0.01,-0.03
1028,359.75,1.1875,25.5,0.01,-0.01,-0.05
1029,359.75,1.1875,25.5,0.01,0.0,-0.02
1030,359.75,1.1875,25.5,0.01,0.0,-0.02
1031,359.75,1.1875,25.5,0.01,0.0,-0.04
1032,359.75,1.1875,25.5,0.0,0.0,-0.03
1033,359.75,1.1875,25.5,0.01,-0.01,-0.04
1034,359.75,1.1875,25.5,0.01,0.0,-0.04
1035,359.75,1.1875,25.5,0.01,0.0,-0.05
1036,359.75,1.1875,25.5,0.01,0.0,-0.05
1037,359.75,1.1875,25.5,0.0,-0.01,-0.01
1038,359.75,1.1875,25.5,0.01,0.0,0.02
1039,359.75,1.1875,25.5,0.0,0.0,-0.03
1040,359.75,1.1875,25.5,0.0,0.0,-0.03
1041,359.75,1.1875,25.5,0.01,0.01,-0.03
1042,359.75,1.1875,25.5,0.01,0.01,-0.03
1043,359.75,1.1875,25.5,0.0,-0.02,-0.02
1044,359.75,1.1875,25.5,0.0,-0.02,-0.02
1045,359.75,1.1875,25.5,0.01,0.0,-0.01
1046,359.75,1.1875,25.5,0.02,-0.02,-0.03
1047,359.75,1.1875,25.5,0.02,-0.01,-0.06
1048,359.75,1.1875,25.5,0.02,-0.01,-0.06
1049,359.75,1.1875,25.5,0.0,0.0,0.0
1050,359.75,1.1875,25.5,0.0,0.0,-0.01
1051,359.75,1.1875,25.5,0.02,-0.01,-0.03
1052,359.75,1.1875,25.5,0.02,-0.01,-0.03
1053,359.75,1.1875,25.5,0.02,0.0,-0.07
1054,359.75,1.1875,25.5,0.02,0.0,-0.07
1055,359.75,1.1875,25.5,0.03,0.0,-0.01
1056,359.75,1.1875,25.5,0.01,0.0,-0.02
1057,359.75,1.1875,25.5,0.01,0.0,-0.01
1058,359.75,1.1875,25.5,0.01,0.0,-0.01
1059,359.75,1.1875,25.5,0.0,-0.01,-0.04
1060,359.75,1.1875,25.5,0.01,0.0,-0.03
1061,359.75,1.1875,25.5,0.01,0.0,-0.03
1062,359.75,1.1875,25.5,0.01,0.0,-0.02
1063,359.75,1.1875,25.5,0.01,-0.01,-0.02
1064,359.75,1.1875,25.5,0.01,-0.01,-0.02
1065,359.75,1.1875,25.5,0.01,-0.01,-0.02
1066,359.75,1.1875,25.5,0.01,-0.01,-0.03
1067,359.75,1.1875,25.5,0.02,-0.01,-0.03
1068,359.75,1.1875,25.5,0.02,-0.01,-0.03
1069,359.75,1.1875,25.5,0.0,0.0,-0.03
1070,359.75,1.1875,25.5,0.0,0.0,-0.05
1071,359.75,1.1875,25.5,0.01,-0.02,-0.02
1072,359.75,1.1875,25.5,0.01,-0.02,-0.02
1073,359.75,1.1875,25.5,0.01,-0.01,-0.03
1074,359.75,1.1875,25.5,0.0,-0.01,-0.04
1075,359.75,1.1875,25.5,0.0,-0.01,-0.04
1076,359.75,1.1875,25.5,0.01,-0.02,-0.03
1077,359.75,1.1875,25.5,0.01,0.0,-0.03
1078,359.75,1.1875,25.5,0.01,-0.01,-0.03
1079,359.75,1.1875,25.5,0.01,-0.01,-0.03
1080,359.75,1.1875,25.5,0.02,-0.01,-0.03
1081,359.75,1.1875,25.5,0.01,0.0,-0.04
1082,359.75,1.1875,25.5,0.01,0.0,-0.04
1083,359.75,1.1875,25.5,0.0,-0.01,-0.05
1084,359.75,1.1875,25.5,0.01,-0.01,-0.04
1085,359.75,1.1875,25.5,0.01,0.0,-0.03
1086,359.75,1.1875,25.5,0.01,0.0,-0.03
1087,359.75,1.1875,25.5,0.02,0.0,-0.02
1088,359.75,1.1875,25.5,0.01,-0.02,-0.02
1089,359.75,1.1875,25.5,0.01,-0.02,-0.02
1090,359.75,1.1875,25.5,0.0,0.0,-0.03
1091,359.75,1.1875,25.5,0.0,0.0,-0.03
1092,359.75,1.1875,25.5,0.0,0.0,-0.01
1093,359.75,1.1875,25.5,0.0,0.0,-0.01
1094,359.75,1.1875,25.5,0.01,-0.01,-0.03
1095,359.75,1.1875,25.5,0.01,-0.01,-0.03
1096,359.75,1.1875,25.5,0.01,-0.01,-0.05
1097,359.75,1.1875,25.5,0.0,-0.01,-0.04
1098,359.75,1.1875,25.5,0.0,-0.01,-0.04
1099,359.75,1.1875,25.5,0.02,0.0,-0.04
1100,359.75,1.1875,25.5,0.02,-0.02,-0.01
1101,359.75,1.1875,25.5,0.01,0.0,-0.02
1102,359.75,1.1875,25.5,0.01,0.0,-0.02
1103,359.75,1.1875,25.5,0.01,0.0,-0.06
